File: figure/Building/XRD.csv
0,0
5,1.47799e-05
5.05,2.66971e-05
5.1,3.58644e-05
5.15,5.07102e-05
5.2,7.71084e-05
5.25,0.000131066
5.3,0.000269961
5.35,0.000958063
5.4,0.012321
5.45,0.00487796
5.5,0.000480695
5.55,0.000191499
5.6,0.000102464
5.65,6.3656e-05
5.7,4.33445e-05
5.75,3.14031e-05
5.8,2.43946e-05
5.85,1.49274e-05
5.9,1.50646e-05
5.95,2.05077e-05
6,2.95385e-05
6.05,4.61745e-05
6.1,8.21582e-05
6.15,0.000185269
6.2,0.00118893
6.25,0.00736656
6.3,0.00118155
6.35,0.000232616
6.4,0.000153358
6.45,0.000164169
6.5,0.000262147
6.55,0.000743684
6.6,0.00883037
6.65,0.00835344
6.7,0.000960752
6.75,0.000324083
6.8,0.000255525
6.85,0.000333247
6.9,0.000796141
6.95,0.0095778
7,0.0100053
7.05,0.0019374
7.1,0.00040634
7.15,0.00027891
7.2,0.000338351
7.25,0.000880777
7.3,0.0113557
7.35,0.00527869
7.4,0.000686412
7.45,0.000208075
7.5,0.00209398
7.55,0.134875
7.6,0.194785
7.65,0.265505
7.7,0.378897
7.75,0.587615
7.8,1.03227
7.85,2.2627
7.9,11.4653
7.95,100
8,17.436
8.05,2.57002
8.1,1.1217
8.15,0.625454
8.2,0.399242
8.25,0.292767
8.3,0.2097
8.35,0.14865
8.4,0.0178975
8.45,0.0428007
8.5,0.0942292
8.55,0.127261
8.6,0.181434
8.65,0.280143
8.7,0.50268
8.75,1.12103
8.8,8.84438
8.85,24.5015
8.9,26.6768
8.95,2.53481
9,0.925434
9.05,1.14006
9.1,8.94782
9.15,1.88705
9.2,0.345658
9.25,0.174422
9.3,0.0880633
9.35,0.0417032
9.4,0.0313588
9.45,0.0202952
9.5,0.0155091
9.55,0.00391303
9.6,0.00513441
9.65,0.00899832
9.7,0.00801588
9.75,0.0136644
9.8,0.0323869
9.85,0.270679
9.9,0.969831
9.95,0.0942019
10,0.0223409
10.05,0.0110372
10.1,0.011909
10.15,0.00865109
10.2,0.00419568
10.25,0.00239683
10.3,0.001807
10.35,0.00549648
10.4,0.00468956
10.45,0.00042541
10.5,0.000155944
10.55,8.33992e-05
10.6,0.000113703
10.65,0.000309587
10.7,0.000407712
10.75,0.000601583
10.8,0.00190709
10.85,0.00313402
10.9,0.00259673
10.95,0.00527105
11,0.0514401
11.05,0.128367
11.1,0.014501
11.15,0.00363866
11.2,0.00245568
11.25,0.00594201
11.3,0.00727542
11.35,0.00254906
11.4,0.000750117
11.45,0.00180433
11.5,0.00357152
11.55,0.00279076
11.6,0.00157898
11.65,0.00182779
11.7,0.00261839
11.75,0.00421408
11.8,0.00802914
11.85,0.0229264
11.9,0.244582
11.95,0.385272
12,0.0367526
12.05,0.0115096
12.1,0.00880692
12.15,0.00679311
12.2,0.00386391
12.25,0.00225304
12.3,0.00215052
12.35,0.00224709
12.4,0.00312495
12.45,0.00762908
12.5,0.0600776
12.55,0.207702
12.6,0.0302847
12.65,0.00706998
12.7,0.00748158
12.75,0.00476379
12.8,0.00229189
12.85,0.00399222
12.9,0.00723914
12.95,0.0061831
13,0.00498992
13.05,0.00916786
13.1,0.016163
13.15,0.036881
13.2,0.450493
13.25,0.618108
13.3,0.0642351
13.35,0.0173729
13.4,0.011533
13.45,0.00786614
13.5,0.0049212
13.55,0.014816
13.6,0.0230268
13.65,0.0283112
13.7,0.0363361
13.75,0.0520313
13.8,0.0903398
13.85,0.198116
13.9,1.06096
13.95,7.60897
14,2.13057
14.05,0.246555
14.1,0.114551
14.15,0.167513
14.2,0.253228
14.25,0.0597736
14.3,0.0284501
14.35,0.0228466
14.4,0.0150109
14.45,0.018384
14.5,0.0309678
14.55,0.0476745
14.6,0.133494
14.65,0.508016
14.7,0.250307
14.75,0.355337
14.8,3.83199
14.85,5.43316
14.9,4.60642
14.95,1.49476
15,0.211581
15.05,0.10052
15.1,0.0600222
15.15,0.0437418
15.2,0.0352951
15.25,0.0278498
15.3,0.0232353
15.35,0.0269896
15.4,0.0445698
15.45,0.140622
15.5,0.633564
15.55,3.03871
15.6,0.977525
15.65,0.131172
15.7,0.0787302
15.75,0.0771753
15.8,0.111038
15.85,0.244044
15.9,2.49081
15.95,4.97829
16,1.90143
16.05,0.61295
16.1,0.134762
16.15,0.0639673
16.2,0.0443717
16.25,0.0332848
16.3,0.0251007
16.35,0.0210259
16.4,0.0168939
16.45,0.0295706
16.5,0.202241
16.55,0.878176
16.6,0.361941
16.65,0.0408108
16.7,0.0173006
16.75,0.0105317
16.8,0.00665353
16.85,0.00476248
16.9,0.00400385
16.95,0.00481638
17,0.00440918
17.05,0.00386738
17.1,0.00500541
17.15,0.00649037
17.2,0.0127031
17.25,0.0483586
17.3,0.550891
17.35,0.3181
17.4,0.042807
17.45,0.0250873
17.5,0.0239377
17.55,0.0290817
17.6,0.0486523
17.65,0.14435
17.7,1.56948
17.75,1.03642
17.8,1.55122
17.85,1.32163
17.9,0.229654
17.95,0.0597722
18,0.0348071
18.05,0.0222419
18.1,0.0170991
18.15,0.0136774
18.2,0.022341
18.25,0.215734
18.3,0.157855
18.35,0.0296623
18.4,0.0142873
18.45,0.00841541
18.5,0.0102866
18.55,0.0112978
18.6,0.0119889
18.65,0.0187732
18.7,0.0500064
18.75,0.647145
18.8,0.519061
18.85,0.118594
18.9,0.390638
18.95,0.303978
19,0.0668798
19.05,0.0275323
19.1,0.0241724
19.15,0.0324014
19.2,0.0534916
19.25,0.273308
19.3,1.37166
19.35,0.91425
19.4,0.230102
19.45,0.162479
19.5,0.135777
19.55,0.157849
19.6,0.0710545
19.65,0.0153566
19.7,0.0102873
19.75,0.00877018
19.8,0.0144211
19.85,0.0307214
19.9,0.106132
19.95,0.186182
20,0.547415
20.05,0.278706
20.1,0.034829
20.15,0.0213043
20.2,0.0228678
20.25,0.029988
20.3,0.0599663
20.35,0.444433
20.4,1.31485
20.45,0.665265
20.5,0.0783839
20.55,0.0482759
20.6,0.0377587
20.65,0.0382356
20.7,0.0494974
20.75,0.0862391
20.8,0.532823
20.85,1.2129
20.9,1.92059
20.95,2.4999
21,1.20918
21.05,0.150624
21.1,0.0680139
21.15,0.0395312
21.2,0.0242475
21.25,0.018122
21.3,0.0124185
21.35,0.00943465
21.4,0.00461466
21.45,0.00531145
21.5,0.00523858
21.55,0.00332542
21.6,0.00341985
21.65,0.00198689
21.7,0.001562
21.75,0.00497448
21.8,0.0270095
21.85,0.0197951
21.9,0.00883308
21.95,0.0124417
22,0.0123309
22.05,0.0173103
22.1,0.0298023
22.15,0.156279
22.2,0.349548
22.25,0.905565
22.3,0.573612
22.35,0.125774
22.4,0.0314161
22.45,0.0161632
22.5,0.00895449
22.55,0.00698162
22.6,0.00915663
22.65,0.0111783
22.7,0.0179402
22.75,0.038669
22.8,0.0535217
22.85,0.0747877
22.9,0.111401
22.95,0.16794
23,0.262309
23.05,0.556713
23.1,1.7362
23.15,13.3852
23.2,9.61285
23.25,6.47368
23.3,18.126
23.35,9.63737
23.4,1.86352
23.45,0.480752
23.5,0.273582
23.55,0.22495
23.6,0.392323
23.65,0.349508
23.7,1.79616
23.75,2.04874
23.8,1.41443
23.85,0.270579
23.9,0.471554
23.95,3.60058
24,4.34769
24.05,3.68323
24.1,0.809925
24.15,0.226751
24.2,0.132824
24.25,0.122358
24.3,0.164924
24.35,0.332742
24.4,2.50803
24.45,6.62818
24.5,4.53885
24.55,0.485499
24.6,0.158904
24.65,0.0862637
24.7,0.0562243
24.75,0.0428103
24.8,0.0525194
24.85,0.267501
24.9,0.131455
24.95,0.0767078
25,0.0254764
25.05,0.0137322
25.1,0.00833318
25.15,0.00576312
25.2,0.0113263
25.25,0.0101724
25.3,0.0126049
25.35,0.01077
25.4,0.0109077
25.45,0.0121294
25.5,0.0151277
25.55,0.026188
25.6,0.251656
25.65,0.16328
25.7,0.115423
25.75,0.0310132
25.8,0.026299
25.85,0.0421516
25.9,0.196855
25.95,1.17915
26,0.542488
26.05,0.213926
26.1,0.0553478
26.15,0.0389482
26.2,0.0386712
26.25,0.105512
26.3,0.719363
26.35,0.371992
26.4,0.570912
26.45,0.269375
26.5,0.227935
26.55,0.118619
26.6,0.620509
26.65,0.698683
26.7,1.70267
26.75,4.56049
26.8,2.16075
26.85,1.94114
26.9,1.41151
26.95,0.916265
27,1.1158
27.05,0.512188
27.1,0.23465
27.15,0.111327
27.2,0.0897759
27.25,0.0465209
27.3,0.0374871
27.35,0.143359
27.4,0.162763
27.45,0.254418
27.5,0.302641
27.55,0.523943
27.6,0.379501
27.65,0.0648469
27.7,0.0245834
27.75,0.017257
27.8,0.0178632
27.85,0.0228726
27.9,0.0452201
27.95,0.0386488
28,0.0524515
28.05,0.210632
28.1,1.24161
28.15,0.573798
28.2,0.587625
28.25,0.803413
28.3,0.607233
28.35,0.184103
28.4,0.115114
28.45,0.236592
28.5,0.19733
28.55,0.201108
28.6,0.0632732
28.65,0.0812978
28.7,0.0590012
28.75,0.0181612
28.8,0.00952367
28.85,0.0103942
28.9,0.0184965
28.95,0.0885394
29,0.107318
29.05,0.107259
29.1,0.0405885
29.15,0.0467643
29.2,0.119249
29.25,0.606044
29.3,1.53421
29.35,0.931584
29.4,1.06252
29.45,0.265265
29.5,0.172171
29.55,0.0976831
29.6,0.0928592
29.65,0.0303612
29.7,0.0251681
29.75,0.0277648
29.8,0.0347361
29.85,0.0754725
29.9,0.259477
29.95,1.1817
30,0.59027
30.05,1.16989
30.1,0.480041
30.15,0.509866
30.2,0.53873
30.25,0.329504
30.3,0.245189
30.35,0.481644
30.4,3.92905
30.45,1.30321
30.5,1.31884
30.55,0.145724
30.6,0.0691604
30.65,0.0437691
30.7,0.0349518
30.75,0.0290366
30.8,0.0847825
30.85,0.0416075
30.9,0.0450486
30.95,0.00992247
31,0.00986772
31.05,0.0152001
31.1,0.0224858
31.15,0.04765
31.2,0.309305
31.25,0.22567
31.3,0.304801
31.35,0.106153
31.4,0.0968984
31.45,0.0233973
31.5,0.014394
31.55,0.0141874
31.6,0.0217485
31.65,0.0880052
31.7,0.0349759
31.75,0.0445927
31.8,0.0133005
31.85,0.0165158
31.9,0.0147452
31.95,0.0499276
32,0.042473
32.05,0.0557307
32.1,0.0695411
32.15,0.558013
32.2,0.220367
32.25,0.329937
32.3,0.154983
32.35,0.0915815
32.4,0.131386
32.45,0.119098
32.5,0.128555
32.55,0.0924872
32.6,0.0402173
32.65,0.0217853
32.7,0.026675
32.75,0.0368791
32.8,0.105526
32.85,0.979443
32.9,0.442737
32.95,0.692307
33,0.216255
33.05,0.0952877
33.1,0.0541797
33.15,0.0208192
33.2,0.0220182
33.25,0.0478215
33.3,0.0249957
33.35,0.0277187
33.4,0.0840042
33.45,0.0746851
33.5,0.0866009
33.55,0.0360446
33.6,0.0263599
33.65,0.0238281
33.7,0.0509674
33.75,0.431177
33.8,0.154982
33.85,0.252661
33.9,0.0493365
33.95,0.0254537
34,0.0210459
34.05,0.0749109
34.1,0.0396913
34.15,0.0559305
34.2,0.0266073
34.25,0.0269983
34.3,0.039901
34.35,0.107212
34.4,0.212306
34.45,1.67854
34.5,0.461448
34.55,0.849873
34.6,0.142725
34.65,0.402129
34.7,0.192664
34.75,0.541196
34.8,0.514653
34.85,0.335979
34.9,0.478091
34.95,0.892734
35,0.427828
35.05,0.618825
35.1,0.473512
35.15,0.247499
35.2,0.388751
35.25,0.150694
35.3,0.352252
35.35,0.101594
35.4,0.176859
35.45,0.115702
35.5,0.0644562
35.55,0.0469302
35.6,0.0237577
35.65,0.0284502
35.7,0.0997838
35.75,0.186878
35.8,0.238727
35.85,1.21281
35.9,0.2936
35.95,0.574351
36,0.103765
36.05,0.204204
36.1,0.381182
36.15,0.879333
36.2,0.422811
36.25,0.467221
36.3,0.268108
36.35,0.091257
36.4,0.134252
36.45,0.0764336
36.5,0.109732
36.55,0.0460125
36.6,0.0532757
36.65,0.0238143
36.7,0.0456411
36.75,0.131754
36.8,0.207225
36.85,0.189661
36.9,0.168748
36.95,0.374595
37,0.471679
37.05,0.252222
37.1,0.24238
37.15,0.0624214
37.2,0.0931675
37.25,0.139016
37.3,0.479966
37.35,0.21848
37.4,0.267273
37.45,0.174639
37.5,0.249191
37.55,0.230553
37.6,0.625803
37.65,0.332719
37.7,0.358915
37.75,0.228786
37.8,0.0971623
37.85,0.0911956
37.9,0.0359371
37.95,0.0265903
38,0.0197938
38.05,0.0436557
38.1,0.118572
38.15,0.161321
38.2,0.233129
38.25,0.156745
38.3,0.131123
38.35,0.205642
38.4,0.140319
38.45,0.141862
38.5,0.0758318
38.55,0.0562972
38.6,0.061839
38.65,0.0721468
38.7,0.0606166
38.75,0.0798435
38.8,0.387629
38.85,0.113556
38.9,0.20349
38.95,0.0582995
39,0.0318556
39.05,0.0255233
39.1,0.0246039
39.15,0.0502065
39.2,0.182693
39.25,0.102457
39.3,0.123312
39.35,0.078822
39.4,0.0422801
39.45,0.0732086
39.5,0.141502
39.55,0.0495749
39.6,0.0887876
39.65,0.164697
39.7,0.0537904
39.75,0.0832042
39.8,0.0335421
39.85,0.0163396
39.9,0.0150233
39.95,0.0131742
40,0.0119174
40.05,0.0101726
40.1,0.00977801
40.15,0.00951905
40.2,0.0102037
40.25,0.0147635
40.3,0.018671
40.35,0.0468218
40.4,0.277391
40.45,0.302344
40.5,0.311327
40.55,0.217868
40.6,0.166942
40.65,0.114901
40.7,0.0728716
40.75,0.057223
40.8,0.0829841
40.85,0.111952
40.9,0.0583334
40.95,0.0683647
41,0.0328343
41.05,0.0476965
41.1,0.0416981
41.15,0.0451163
41.2,0.0478952
41.25,0.0348818
41.3,0.179424
41.35,0.257995
41.4,0.0909781
41.45,0.181387
41.5,0.0857374
41.55,0.0641071
41.6,0.1401
41.65,0.0834347
41.7,0.190394
41.75,0.135555
41.8,0.108113
41.85,0.109107
41.9,0.126015
41.95,0.0650392
42,0.053424
42.05,0.0368366
42.1,0.0184952
42.15,0.0174736
42.2,0.0312981
42.25,0.0442899
42.3,0.0348147
42.35,0.166977
42.4,0.0672068
42.45,0.0824762
42.5,0.167868
42.55,0.21487
42.6,0.0784378
42.65,0.152957
42.7,0.0789262
42.75,0.248694
42.8,0.099448
42.85,0.210941
42.9,0.177599
42.95,0.181627
43,0.163539
43.05,0.0789898
43.1,0.0741066
43.15,0.041057
43.2,0.103031
43.25,0.0539244
43.3,0.218952
43.35,0.0890761
43.4,0.130277
43.45,0.0759707
43.5,0.0577511
43.55,0.0981021
43.6,0.263876
43.65,0.20359
43.7,0.142111
43.75,0.234547
43.8,0.214341
43.85,0.098693
43.9,0.346163
43.95,0.231342
44,0.124035
44.05,0.147239
44.1,0.0442258
44.15,0.0173666
44.2,0.0138298
44.25,0.019101
44.3,0.0360437
44.35,0.0226734
44.4,0.070431
44.45,0.0610282
44.5,0.0412564
44.55,0.117606
44.6,0.142706
44.65,0.124811
44.7,0.163683
44.75,0.0747763
44.8,0.151501
44.85,0.181048
44.9,0.116966
44.95,0.293919
45,0.0760886
45.05,0.140019
45.1,0.07475
45.15,0.121919
45.2,0.706627
45.25,1.00165
45.3,0.406208
45.35,0.569657
45.4,0.353827
45.45,0.572116
45.5,0.795628
45.55,1.73202
45.6,1.06309
45.65,1.40559
45.7,0.543666
45.75,0.552251
45.8,0.188642
45.85,0.0601979
45.9,0.0617764
45.95,0.036416
46,0.0541386
46.05,0.042154
46.1,0.0307115
46.15,0.0748512
46.2,0.0888547
46.25,0.0523688
46.3,0.139935
46.35,0.16815
46.4,0.162474
46.45,0.228879
46.5,0.169495
46.55,0.183981
46.6,0.241842
46.65,0.0904326
46.7,0.138564
46.75,0.129671
46.8,0.0614394
46.85,0.0675319
46.9,0.0356833
46.95,0.0237834
47,0.0358005
47.05,0.0324874
47.1,0.018046
47.15,0.0350766
47.2,0.0279725
47.25,0.0264098
47.3,0.0398136
47.35,0.126412
47.4,0.064098
47.45,0.124872
47.5,0.407467
47.55,0.30097
47.6,0.27545
47.65,0.398039
47.7,0.18064
47.75,0.117707
47.8,0.0890674
47.85,0.0732027
47.9,0.0485981
47.95,0.043268
48,0.0734028
48.05,0.0253962
48.1,0.0387245
48.15,0.0451924
48.2,0.0263625
48.25,0.0247422
48.3,0.0334697
48.35,0.016009
48.4,0.0216934
48.45,0.0217447
48.5,0.0452804
48.55,0.14069
48.6,0.127186
48.65,0.684797
48.7,0.432861
48.75,0.207067
48.8,0.379116
48.85,0.127836
48.9,0.0758213
48.95,0.170355
49,0.124406
49.05,0.0858736
49.1,0.199289
49.15,0.307072
49.2,0.0776334
49.25,0.145653
49.3,0.123812
49.35,0.0955072
49.4,0.109593
49.45,0.0733272
49.5,0.0865945
49.55,0.283805
49.6,0.205494
49.65,0.094497
49.7,0.18651
49.75,0.078674
49.8,0.109706
49.85,0.0996644
49.9,0.0531067
49.95,0.0675374
50,0.0540169